subjectID, block_type, block_number, trial_number, trial_type, arrangement, prob_loc, high_loc, A_amount_loc, A_prob_loc, B_amount_loc, B_prob_loc, A_amount, A_prob, B_amount, B_prob, A_color, B_color,chosen_color, chosen_amount, chosen_prob, choice,startRT, choiceRT, spin_degrees, outcome, outcome_amount
03AN,practice,1,1,catch,vertical,left,bottom,right-bottom,left-bottom,right-top,left-top,60,70,20,50,yellow,blue,yellow,60,70,A,1500,7947,122,win,60
03AN,practice,1,2,experimental,horizontal,top,left,left-bottom,left-top,right-bottom,right-top,20,60,60,40,blue,yellow,yellow,60,40,B,1367,10117,266,win,60
03AN,practice,1,3,experimental,horizontal,bottom,left,left-top,left-bottom,right-top,right-bottom,10,50,40,20,blue,yellow,blue,10,50,A,1354,5185,162,no_win,0
03AN,practice,1,4,experimental,horizontal,top,right,right-bottom,right-top,left-bottom,left-top,20,60,50,50,yellow,blue,blue,50,50,B,967,6742,4,no_win,0
03AN,practice,1,5,experimental,horizontal,top,left,left-bottom,left-top,right-bottom,right-top,20,90,90,50,blue,yellow,yellow,90,50,B,802,4572,96,no_win,0
03AN,practice,1,6,experimental,vertical,right,top,left-top,right-top,left-bottom,right-bottom,10,60,40,20,blue,yellow,blue,10,60,A,893,13884,84,no_win,0
03AN,exp,1,1,experimental,horizontal,bottom,right,right-top,right-bottom,left-top,left-bottom,30,80,100,10,yellow,blue,yellow,30,80,A,1377,9278,236,win,30
03AN,exp,1,2,experimental,vertical,left,top,right-top,left-top,right-bottom,left-bottom,40,80,100,30,blue,yellow,yellow,100,30,B,776,8436,52,no_win,0
03AN,exp,1,3,experimental,horizontal,top,right,right-bottom,right-top,left-bottom,left-top,50,90,60,40,yellow,blue,yellow,50,90,A,833,5709,256,win,50
03AN,exp,1,4,experimental,vertical,right,bottom,left-bottom,right-bottom,left-top,right-top,20,60,90,30,yellow,blue,blue,90,30,B,788,5536,336,win,90
03AN,exp,1,5,experimental,vertical,right,bottom,left-bottom,right-bottom,left-top,right-top,40,60,50,40,yellow,blue,yellow,40,60,A,1188,7897,117,no_win,0
03AN,exp,1,6,experimental,horizontal,top,left,left-bottom,left-top,right-bottom,right-top,20,80,90,20,blue,yellow,yellow,90,20,B,948,8627,20,no_win,0
03AN,exp,1,7,experimental,vertical,left,top,right-top,left-top,right-bottom,left-bottom,50,50,70,30,blue,yellow,blue,50,50,A,801,6623,220,win,50
03AN,exp,1,8,experimental,horizontal,top,right,right-bottom,right-top,left-bottom,left-top,10,80,80,20,yellow,blue,blue,80,20,B,623,6970,302,win,80
03AN,exp,1,9,experimental,horizontal,top,left,left-bottom,left-top,right-bottom,right-top,50,70,100,30,blue,yellow,blue,50,70,A,689,5668,358,win,50
03AN,exp,1,10,experimental,horizontal,bottom,right,right-top,right-bottom,left-top,left-bottom,10,90,100,20,yellow,blue,yellow,10,90,A,1600,8155,185,win,10
03AN,exp,1,11,catch,horizontal,bottom,right,right-top,right-bottom,left-top,left-bottom,70,80,30,40,yellow,blue,yellow,70,80,A,696,3505,22,no_win,0
03AN,exp,1,12,experimental,vertical,right,bottom,left-bottom,right-bottom,left-top,right-top,30,80,40,30,yellow,blue,yellow,30,80,A,622,11420,92,win,30
03AN,exp,1,13,experimental,vertical,left,bottom,right-bottom,left-bottom,right-top,left-top,60,60,90,50,yellow,blue,blue,90,50,B,643,9257,1,no_win,0
03AN,exp,1,14,catch,vertical,right,top,left-top,right-top,left-bottom,right-bottom,80,70,30,40,blue,yellow,blue,80,70,A,1024,4238,113,win,80
03AN,exp,1,15,experimental,vertical,left,bottom,right-bottom,left-bottom,right-top,left-top,40,60,70,50,yellow,blue,blue,70,50,B,2364,28677,274,win,70
03AN,exp,1,16,catch,vertical,left,bottom,right-bottom,left-bottom,right-top,left-top,50,70,30,50,yellow,blue,yellow,50,70,A,1156,4062,87,no_win,0
03AN,exp,1,17,experimental,horizontal,top,right,right-bottom,right-top,left-bottom,left-top,30,60,80,20,yellow,blue,blue,80,20,B,1941,6046,231,no_win,0
03AN,exp,1,18,experimental,horizontal,top,left,left-bottom,left-top,right-bottom,right-top,50,80,60,30,blue,yellow,blue,50,80,A,2166,3856,284,win,50
03AN,exp,1,19,experimental,horizontal,bottom,left,left-top,left-bottom,right-top,right-bottom,60,50,70,40,blue,yellow,blue,60,50,A,899,5983,115,no_win,0
03AN,exp,1,20,experimental,horizontal,bottom,left,left-top,left-bottom,right-top,right-bottom,10,80,70,30,blue,yellow,yellow,70,30,B,819,3574,215,no_win,0
03AN,exp,1,21,experimental,horizontal,top,left,left-bottom,left-top,right-bottom,right-top,30,60,40,40,blue,yellow,blue,30,60,A,831,6233,132,no_win,0
03AN,exp,1,22,experimental,horizontal,top,left,left-bottom,left-top,right-bottom,right-top,60,80,80,40,blue,yellow,blue,60,80,A,1459,5639,43,no_win,0
03AN,exp,1,23,experimental,horizontal,top,left,left-bottom,left-top,right-bottom,right-top,20,70,80,30,blue,yellow,yellow,80,30,B,694,5851,313,win,80
03AN,exp,1,24,experimental,vertical,right,bottom,left-bottom,right-bottom,left-top,right-top,40,90,70,40,yellow,blue,blue,70,40,B,994,44163,256,win,70
03AN,exp,1,25,experimental,vertical,right,bottom,left-bottom,right-bottom,left-top,right-top,60,70,80,40,yellow,blue,blue,80,40,B,1214,18932,171,no_win,0
03AN,exp,1,26,experimental,horizontal,bottom,left,left-top,left-bottom,right-top,right-bottom,30,80,70,30,blue,yellow,blue,30,80,A,942,7422,155,win,30
03AN,exp,1,27,experimental,horizontal,bottom,right,right-top,right-bottom,left-top,left-bottom,10,60,70,10,yellow,blue,yellow,10,60,A,983,5662,354,win,10
03AN,exp,1,28,experimental,horizontal,bottom,left,left-top,left-bottom,right-top,right-bottom,10,90,80,20,blue,yellow,yellow,80,20,B,2192,6985,249,no_win,0
03AN,exp,1,29,experimental,vertical,right,top,left-top,right-top,left-bottom,right-bottom,40,70,50,40,blue,yellow,blue,40,70,A,946,5042,230,win,40
03AN,exp,1,30,experimental,vertical,right,bottom,left-bottom,right-bottom,left-top,right-top,30,90,80,40,yellow,blue,blue,80,40,B,682,3196,115,no_win,0
03AN,exp,1,31,experimental,horizontal,bottom,right,right-top,right-bottom,left-top,left-bottom,20,90,40,50,yellow,blue,yellow,20,90,A,626,5588,162,win,20
03AN,exp,1,32,experimental,horizontal,top,left,left-bottom,left-top,right-bottom,right-top,20,50,70,30,blue,yellow,yellow,70,30,B,1023,9475,303,win,70
03AN,exp,1,33,experimental,horizontal,bottom,right,right-top,right-bottom,left-top,left-bottom,30,60,100,20,yellow,blue,blue,100,20,B,599,4239,345,win,100
03AN,exp,1,34,experimental,vertical,right,top,left-top,right-top,left-bottom,right-bottom,40,60,80,50,blue,yellow,yellow,80,50,B,957,3796,97,no_win,0
03AN,exp,1,35,experimental,vertical,left,top,right-top,left-top,right-bottom,left-bottom,40,90,100,20,blue,yellow,blue,40,90,A,456,5298,339,win,40
03AN,exp,1,36,experimental,vertical,right,top,left-top,right-top,left-bottom,right-bottom,10,60,40,20,blue,yellow,blue,10,60,A,834,3458,237,win,10
03AN,exp,1,37,catch,horizontal,bottom,right,right-top,right-bottom,left-top,left-bottom,90,80,70,50,yellow,blue,yellow,90,80,A,705,3015,308,win,90
03AN,exp,1,38,experimental,horizontal,top,right,right-bottom,right-top,left-bottom,left-top,20,60,50,40,yellow,blue,blue,50,40,B,682,13106,232,win,50
03AN,exp,1,39,experimental,vertical,right,top,left-top,right-top,left-bottom,right-bottom,40,70,80,20,blue,yellow,blue,40,70,A,466,5743,8,no_win,0
03AN,exp,1,40,experimental,horizontal,bottom,left,left-top,left-bottom,right-top,right-bottom,40,80,80,20,blue,yellow,blue,40,80,A,681,6162,178,win,40
03AN,exp,1,41,experimental,vertical,left,top,right-top,left-top,right-bottom,left-bottom,40,90,80,30,blue,yellow,blue,40,90,A,543,5341,112,win,40
03AN,exp,1,42,experimental,horizontal,top,right,right-bottom,right-top,left-bottom,left-top,30,50,90,20,yellow,blue,blue,90,20,B,852,3999,349,win,90
03AN,exp,1,43,catch,vertical,right,top,left-top,right-top,left-bottom,right-bottom,80,80,60,10,blue,yellow,blue,80,80,A,1535,4221,165,win,80
03AN,exp,1,44,experimental,horizontal,top,right,right-bottom,right-top,left-bottom,left-top,20,60,50,50,yellow,blue,blue,50,50,B,2168,3347,332,win,50
03AN,exp,1,45,experimental,vertical,right,bottom,left-bottom,right-bottom,left-top,right-top,10,90,50,20,yellow,blue,yellow,10,90,A,587,6303,324,win,10
03AN,exp,1,46,experimental,vertical,right,bottom,left-bottom,right-bottom,left-top,right-top,30,90,60,20,yellow,blue,yellow,30,90,A,592,7446,227,win,30
03AN,exp,1,47,experimental,vertical,right,bottom,left-bottom,right-bottom,left-top,right-top,30,60,70,20,yellow,blue,blue,70,20,B,1391,10373,153,no_win,0
03AN,exp,1,48,experimental,horizontal,top,left,left-bottom,left-top,right-bottom,right-top,20,60,60,40,blue,yellow,yellow,60,40,B,2548,17010,92,no_win,0
03AN,exp,1,49,experimental,horizontal,bottom,right,right-top,right-bottom,left-top,left-bottom,10,70,90,20,yellow,blue,blue,90,20,B,591,3912,130,no_win,0
03AN,exp,1,50,experimental,horizontal,bottom,left,left-top,left-bottom,right-top,right-bottom,30,60,80,10,blue,yellow,blue,30,60,A,628,5051,67,no_win,0
03AN,exp,1,51,experimental,horizontal,bottom,left,left-top,left-bottom,right-top,right-bottom,30,50,100,30,blue,yellow,yellow,100,30,B,488,3720,81,no_win,0
03AN,exp,1,52,experimental,vertical,right,bottom,left-bottom,right-bottom,left-top,right-top,50,90,100,20,yellow,blue,yellow,50,90,A,424,3505,230,win,50
03AN,exp,1,53,experimental,horizontal,bottom,right,right-top,right-bottom,left-top,left-bottom,50,60,90,20,yellow,blue,blue,90,20,B,653,4486,213,no_win,0
03AN,exp,1,54,experimental,vertical,right,top,left-top,right-top,left-bottom,right-bottom,20,60,70,40,blue,yellow,yellow,70,40,B,458,3548,154,no_win,0
03AN,exp,1,55,experimental,horizontal,top,left,left-bottom,left-top,right-bottom,right-top,10,70,60,10,blue,yellow,blue,10,70,A,833,4582,352,win,10
03AN,exp,1,56,experimental,horizontal,top,right,right-bottom,right-top,left-bottom,left-top,20,90,80,30,yellow,blue,blue,80,30,B,2517,17681,135,no_win,0
03AN,exp,1,57,experimental,vertical,left,top,right-top,left-top,right-bottom,left-bottom,20,80,50,40,blue,yellow,yellow,50,40,B,582,6463,168,no_win,0
03AN,exp,1,58,experimental,horizontal,top,right,right-bottom,right-top,left-bottom,left-top,40,80,90,50,yellow,blue,blue,90,50,B,671,3471,131,no_win,0
03AN,exp,1,59,experimental,vertical,right,top,left-top,right-top,left-bottom,right-bottom,30,60,70,30,blue,yellow,blue,30,60,A,516,7730,207,win,30
03AN,exp,1,60,experimental,horizontal,bottom,left,left-top,left-bottom,right-top,right-bottom,10,60,40,40,blue,yellow,yellow,40,40,B,26587,6407,285,win,40
03AN,exp,1,61,experimental,horizontal,bottom,right,right-top,right-bottom,left-top,left-bottom,30,60,90,10,yellow,blue,blue,90,10,B,795,6186,129,no_win,0
03AN,exp,1,62,experimental,horizontal,bottom,left,left-top,left-bottom,right-top,right-bottom,10,50,40,20,blue,yellow,yellow,40,20,B,777,3576,175,no_win,0
03AN,exp,1,63,catch,horizontal,bottom,left,left-top,left-bottom,right-top,right-bottom,90,60,40,20,blue,yellow,blue,90,60,A,719,4334,269,win,90
03AN,exp,1,64,experimental,vertical,left,bottom,right-bottom,left-bottom,right-top,left-top,50,90,60,50,yellow,blue,blue,60,50,B,934,3474,20,no_win,0
03AN,exp,1,65,experimental,vertical,right,bottom,left-bottom,right-bottom,left-top,right-top,60,70,90,50,yellow,blue,blue,90,50,B,1691,4319,79,no_win,0
03AN,exp,1,66,experimental,horizontal,top,left,left-bottom,left-top,right-bottom,right-top,20,90,90,50,blue,yellow,yellow,90,50,B,583,4188,10,no_win,0
03AN,exp,1,67,catch,horizontal,top,left,left-bottom,left-top,right-bottom,right-top,80,90,60,80,blue,yellow,blue,80,90,A,695,7501,3,no_win,0
03AN,exp,1,68,experimental,horizontal,top,right,right-bottom,right-top,left-bottom,left-top,20,70,50,50,yellow,blue,blue,50,50,B,941,8572,7,no_win,0
03AN,exp,1,69,experimental,vertical,left,bottom,right-bottom,left-bottom,right-top,left-top,60,70,90,30,yellow,blue,yellow,60,70,A,805,4803,219,win,60
03AN,exp,1,70,experimental,horizontal,bottom,left,left-top,left-bottom,right-top,right-bottom,30,80,100,40,blue,yellow,yellow,100,40,B,1214,5711,330,win,100
03AN,exp,1,71,experimental,horizontal,top,left,left-bottom,left-top,right-bottom,right-top,50,50,100,10,blue,yellow,blue,50,50,A,1003,5147,282,win,50
03AN,exp,1,72,catch,vertical,right,top,left-top,right-top,left-bottom,right-bottom,80,90,70,20,blue,yellow,blue,80,90,A,1753,3361,213,win,80
03AN,exp,1,73,experimental,horizontal,bottom,left,left-top,left-bottom,right-top,right-bottom,40,90,50,30,blue,yellow,blue,40,90,A,1168,9005,11,no_win,0
03AN,exp,1,74,experimental,vertical,right,top,left-top,right-top,left-bottom,right-bottom,20,70,70,40,blue,yellow,yellow,70,40,B,1100,3459,61,no_win,0
03AN,exp,1,75,experimental,horizontal,top,left,left-bottom,left-top,right-bottom,right-top,50,70,80,20,blue,yellow,blue,50,70,A,842,2728,62,no_win,0
03AN,exp,1,76,experimental,vertical,right,top,left-top,right-top,left-bottom,right-bottom,30,90,100,20,blue,yellow,blue,30,90,A,477,5843,56,win,30
03AN,exp,1,77,experimental,vertical,left,top,right-top,left-top,right-bottom,left-bottom,60,80,80,30,blue,yellow,blue,60,80,A,786,5829,346,win,60
03AN,exp,1,78,experimental,vertical,left,bottom,right-bottom,left-bottom,right-top,left-top,30,70,90,40,yellow,blue,blue,90,40,B,818,5574,335,win,90
03AN,exp,1,79,experimental,horizontal,top,left,left-bottom,left-top,right-bottom,right-top,50,50,80,40,blue,yellow,yellow,80,40,B,1136,3293,78,no_win,0
03AN,exp,1,80,catch,vertical,left,bottom,right-bottom,left-bottom,right-top,left-top,60,70,20,50,yellow,blue,yellow,60,70,A,436,3443,158,win,60
03AN,exp,1,81,experimental,vertical,right,top,left-top,right-top,left-bottom,right-bottom,40,90,90,30,blue,yellow,yellow,90,30,B,726,2906,5,no_win,0
03AN,exp,1,82,experimental,vertical,right,bottom,left-bottom,right-bottom,left-top,right-top,30,70,60,50,yellow,blue,blue,60,50,B,580,2990,169,no_win,0
03AN,exp,1,83,experimental,horizontal,top,left,left-bottom,left-top,right-bottom,right-top,10,90,70,30,blue,yellow,yellow,70,30,B,674,2666,274,win,70
03AN,exp,1,84,experimental,horizontal,bottom,right,right-top,right-bottom,left-top,left-bottom,60,80,70,40,yellow,blue,yellow,60,80,A,997,5154,333,win,60
03AN,exp,1,85,experimental,vertical,right,bottom,left-bottom,right-bottom,left-top,right-top,60,50,70,20,yellow,blue,yellow,60,50,A,765,17485,202,win,60
03AN,exp,1,86,experimental,horizontal,bottom,left,left-top,left-bottom,right-top,right-bottom,30,90,80,20,blue,yellow,blue,30,90,A,515,3408,242,win,30
03AN,exp,1,87,experimental,vertical,left,bottom,right-bottom,left-bottom,right-top,left-top,10,90,70,20,yellow,blue,blue,70,20,B,1486,3636,312,win,70
03AN,exp,1,88,experimental,vertical,left,top,right-top,left-top,right-bottom,left-bottom,60,70,100,20,blue,yellow,blue,60,70,A,654,4262,155,win,60
03AN,exp,1,89,catch,vertical,right,top,left-top,right-top,left-bottom,right-bottom,80,90,50,60,blue,yellow,blue,80,90,A,612,5961,230,win,80
03AN,exp,1,90,experimental,vertical,left,bottom,right-bottom,left-bottom,right-top,left-top,60,70,70,50,yellow,blue,yellow,60,70,A,1073,6258,322,win,60
