subjectID, block_type, block_number, trial_number, trial_type, arrangement, prob_loc, high_loc, A_amount_loc, A_prob_loc, B_amount_loc, B_prob_loc, A_amount, A_prob, B_amount, B_prob, A_color, B_color,chosen_color, chosen_amount, chosen_prob, choice,startRT, choiceRT, spin_degrees, outcome, outcome_amount
01YA,practice,1,1,experimental,vertical,left,bottom,right-bottom,left-bottom,right-top,left-top,10,90,70,30,yellow,blue,blue,70,30,B,1522,4285,344,win,70
01YA,practice,1,2,experimental,vertical,left,top,right-top,left-top,right-bottom,left-bottom,30,70,90,40,blue,yellow,blue,30,70,A,1472,2113,90,no_win,0
01YA,practice,1,3,experimental,horizontal,bottom,left,left-top,left-bottom,right-top,right-bottom,30,60,40,40,blue,yellow,yellow,40,40,B,892,1144,304,win,40
01YA,practice,1,4,experimental,horizontal,bottom,left,left-top,left-bottom,right-top,right-bottom,20,60,50,50,blue,yellow,blue,20,60,A,854,1324,141,no_win,0
01YA,practice,1,5,experimental,horizontal,top,left,left-bottom,left-top,right-bottom,right-top,20,50,70,30,blue,yellow,yellow,70,30,B,748,835,285,win,70
01YA,practice,1,6,experimental,horizontal,top,left,left-bottom,left-top,right-bottom,right-top,30,80,70,30,blue,yellow,blue,30,80,A,766,602,310,win,30
01YA,exp,1,1,experimental,horizontal,bottom,left,left-top,left-bottom,right-top,right-bottom,40,90,50,30,blue,yellow,blue,40,90,A,1639,1330,159,win,40
01YA,exp,1,2,experimental,horizontal,top,left,left-bottom,left-top,right-bottom,right-top,50,90,60,40,blue,yellow,yellow,60,40,B,1155,7089,236,win,60
01YA,exp,1,3,experimental,vertical,right,top,left-top,right-top,left-bottom,right-bottom,60,70,70,50,blue,yellow,blue,60,70,A,753,11843,246,win,60
01YA,exp,1,4,experimental,vertical,right,bottom,left-bottom,right-bottom,left-top,right-top,40,90,70,40,yellow,blue,yellow,40,90,A,1357,4163,314,win,40
01YA,exp,1,5,experimental,horizontal,top,left,left-bottom,left-top,right-bottom,right-top,50,70,100,30,blue,yellow,blue,50,70,A,515,2941,325,win,50
01YA,exp,1,6,experimental,vertical,right,top,left-top,right-top,left-bottom,right-bottom,40,80,100,30,blue,yellow,blue,40,80,A,808,2523,154,win,40
01YA,exp,1,7,experimental,vertical,left,top,right-top,left-top,right-bottom,left-bottom,50,50,80,40,blue,yellow,yellow,80,40,B,761,2971,287,win,80
01YA,exp,1,8,experimental,vertical,right,top,left-top,right-top,left-bottom,right-bottom,10,60,40,20,blue,yellow,blue,10,60,A,737,2923,36,no_win,0
01YA,exp,1,9,experimental,vertical,right,top,left-top,right-top,left-bottom,right-bottom,30,60,80,10,blue,yellow,blue,30,60,A,805,2678,31,no_win,0
01YA,exp,1,10,experimental,vertical,right,bottom,left-bottom,right-bottom,left-top,right-top,30,90,100,20,yellow,blue,yellow,30,90,A,674,3503,289,win,30
01YA,exp,1,11,experimental,horizontal,bottom,left,left-top,left-bottom,right-top,right-bottom,20,60,50,50,blue,yellow,yellow,50,50,B,564,573,183,win,50
01YA,exp,1,12,experimental,vertical,right,bottom,left-bottom,right-bottom,left-top,right-top,10,50,40,20,yellow,blue,yellow,10,50,A,665,3490,73,no_win,0
01YA,exp,1,13,experimental,horizontal,bottom,right,right-top,right-bottom,left-top,left-bottom,40,70,50,40,yellow,blue,yellow,40,70,A,576,3729,270,win,40
01YA,exp,1,14,experimental,vertical,left,top,right-top,left-top,right-bottom,left-bottom,40,60,80,50,blue,yellow,yellow,80,50,B,618,2375,202,win,80
01YA,exp,1,15,experimental,vertical,left,bottom,right-bottom,left-bottom,right-top,left-top,10,60,70,10,yellow,blue,yellow,10,60,A,627,3257,204,win,10
01YA,exp,1,16,experimental,horizontal,top,right,right-bottom,right-top,left-bottom,left-top,60,50,70,20,yellow,blue,yellow,60,50,A,678,18837,252,win,60
01YA,exp,1,17,catch,horizontal,top,right,right-bottom,right-top,left-bottom,left-top,80,70,30,40,yellow,blue,yellow,80,70,A,521,4721,171,win,80
01YA,exp,1,18,experimental,vertical,left,top,right-top,left-top,right-bottom,left-bottom,20,70,80,30,blue,yellow,yellow,80,30,B,1023,3557,192,no_win,0
01YA,exp,1,19,experimental,horizontal,bottom,right,right-top,right-bottom,left-top,left-bottom,10,70,60,10,yellow,blue,yellow,10,70,A,575,2963,203,win,10
01YA,exp,1,20,experimental,vertical,left,top,right-top,left-top,right-bottom,left-bottom,60,80,80,40,blue,yellow,blue,60,80,A,1196,3257,350,win,60
01YA,exp,1,21,experimental,vertical,right,bottom,left-bottom,right-bottom,left-top,right-top,10,90,50,20,yellow,blue,yellow,10,90,A,464,3837,93,win,10
01YA,exp,1,22,experimental,horizontal,bottom,left,left-top,left-bottom,right-top,right-bottom,10,70,90,20,blue,yellow,blue,10,70,A,529,2986,27,no_win,0
01YA,exp,1,23,experimental,vertical,left,bottom,right-bottom,left-bottom,right-top,left-top,20,60,50,40,yellow,blue,yellow,20,60,A,426,3923,103,no_win,0
01YA,exp,1,24,catch,horizontal,bottom,right,right-top,right-bottom,left-top,left-bottom,60,70,20,50,yellow,blue,yellow,60,70,A,646,4144,264,win,60
01YA,exp,1,25,experimental,horizontal,bottom,left,left-top,left-bottom,right-top,right-bottom,10,60,40,40,blue,yellow,blue,10,60,A,543,3040,89,no_win,0
01YA,exp,1,26,experimental,horizontal,bottom,left,left-top,left-bottom,right-top,right-bottom,20,90,90,50,blue,yellow,blue,20,90,A,558,3028,100,win,20
01YA,exp,1,27,experimental,horizontal,top,left,left-bottom,left-top,right-bottom,right-top,40,80,80,20,blue,yellow,blue,40,80,A,1260,5440,276,win,40
01YA,exp,1,28,experimental,horizontal,top,left,left-bottom,left-top,right-bottom,right-top,30,80,40,30,blue,yellow,yellow,40,30,B,430,489,11,no_win,0
01YA,exp,1,29,experimental,horizontal,bottom,right,right-top,right-bottom,left-top,left-bottom,40,70,80,20,yellow,blue,yellow,40,70,A,1013,2320,195,win,40
01YA,exp,1,30,catch,horizontal,bottom,left,left-top,left-bottom,right-top,right-bottom,80,90,70,20,blue,yellow,blue,80,90,A,696,3435,252,win,80
01YA,exp,1,31,experimental,horizontal,top,right,right-bottom,right-top,left-bottom,left-top,30,90,80,40,yellow,blue,yellow,30,90,A,10226,4503,196,win,30
01YA,exp,1,32,catch,vertical,left,top,right-top,left-top,right-bottom,left-bottom,90,60,40,20,blue,yellow,blue,90,60,A,445,5021,145,win,90
01YA,exp,1,33,experimental,vertical,left,bottom,right-bottom,left-bottom,right-top,left-top,20,60,90,30,yellow,blue,yellow,20,60,A,518,3721,69,no_win,0
01YA,exp,1,34,experimental,horizontal,bottom,left,left-top,left-bottom,right-top,right-bottom,30,60,40,40,blue,yellow,blue,30,60,A,474,2692,289,win,30
01YA,exp,1,35,experimental,vertical,left,bottom,right-bottom,left-bottom,right-top,left-top,30,80,100,10,yellow,blue,yellow,30,80,A,584,2329,285,win,30
01YA,exp,1,36,experimental,vertical,left,top,right-top,left-top,right-bottom,left-bottom,30,80,100,40,blue,yellow,blue,30,80,A,550,1909,343,win,30
01YA,exp,1,37,catch,horizontal,top,right,right-bottom,right-top,left-bottom,left-top,90,80,70,50,yellow,blue,yellow,90,80,A,521,3891,347,win,90
01YA,exp,1,38,experimental,vertical,right,bottom,left-bottom,right-bottom,left-top,right-top,20,80,90,20,yellow,blue,yellow,20,80,A,638,3265,10,no_win,0
01YA,exp,1,39,experimental,vertical,left,bottom,right-bottom,left-bottom,right-top,left-top,40,90,90,30,yellow,blue,yellow,40,90,A,493,3581,312,win,40
01YA,exp,1,40,experimental,vertical,right,top,left-top,right-top,left-bottom,right-bottom,50,60,90,20,blue,yellow,blue,50,60,A,582,2591,328,win,50
01YA,exp,1,41,experimental,horizontal,bottom,right,right-top,right-bottom,left-top,left-bottom,60,70,90,30,yellow,blue,yellow,60,70,A,475,2516,97,no_win,0
01YA,exp,1,42,experimental,vertical,left,top,right-top,left-top,right-bottom,left-bottom,10,90,100,20,blue,yellow,blue,10,90,A,513,2021,77,win,10
01YA,exp,1,43,experimental,vertical,right,bottom,left-bottom,right-bottom,left-top,right-top,30,60,80,20,yellow,blue,yellow,30,60,A,602,2279,168,win,30
01YA,exp,1,44,experimental,horizontal,bottom,right,right-top,right-bottom,left-top,left-bottom,30,60,70,20,yellow,blue,yellow,30,60,A,544,2098,163,win,30
01YA,exp,1,45,catch,horizontal,top,right,right-bottom,right-top,left-bottom,left-top,50,70,30,50,yellow,blue,yellow,50,70,A,533,2907,21,no_win,0
01YA,exp,1,46,experimental,vertical,left,bottom,right-bottom,left-bottom,right-top,left-top,40,60,70,50,yellow,blue,yellow,40,60,A,607,2993,240,win,40
01YA,exp,1,47,experimental,horizontal,bottom,right,right-top,right-bottom,left-top,left-bottom,30,60,100,20,yellow,blue,yellow,30,60,A,668,3032,354,win,30
01YA,exp,1,48,experimental,vertical,right,top,left-top,right-top,left-bottom,right-bottom,50,50,100,10,blue,yellow,blue,50,50,A,468,3373,17,no_win,0
01YA,exp,1,49,experimental,horizontal,top,right,right-bottom,right-top,left-bottom,left-top,30,50,90,20,yellow,blue,blue,90,20,B,529,3450,246,no_win,0
01YA,exp,1,50,experimental,vertical,left,bottom,right-bottom,left-bottom,right-top,left-top,50,50,70,30,yellow,blue,yellow,50,50,A,586,3341,328,win,50
01YA,exp,1,51,experimental,horizontal,top,right,right-bottom,right-top,left-bottom,left-top,40,80,90,50,yellow,blue,yellow,40,80,A,723,1935,344,win,40
01YA,exp,1,52,experimental,horizontal,top,left,left-bottom,left-top,right-bottom,right-top,20,80,50,40,blue,yellow,blue,20,80,A,721,1741,355,win,20
01YA,exp,1,53,experimental,horizontal,bottom,left,left-top,left-bottom,right-top,right-bottom,60,50,70,40,blue,yellow,yellow,70,40,B,625,2717,72,no_win,0
01YA,exp,1,54,experimental,horizontal,top,left,left-bottom,left-top,right-bottom,right-top,20,50,70,30,blue,yellow,blue,20,50,A,731,2714,292,win,20
01YA,exp,1,55,experimental,horizontal,top,right,right-bottom,right-top,left-bottom,left-top,20,90,80,30,yellow,blue,yellow,20,90,A,590,1610,306,win,20
01YA,exp,1,56,experimental,vertical,right,top,left-top,right-top,left-bottom,right-bottom,30,90,80,20,blue,yellow,yellow,80,20,B,608,4692,176,no_win,0
01YA,exp,1,57,experimental,vertical,right,bottom,left-bottom,right-bottom,left-top,right-top,30,50,100,30,yellow,blue,blue,100,30,B,488,2360,294,win,100
01YA,exp,1,58,experimental,horizontal,bottom,left,left-top,left-bottom,right-top,right-bottom,20,90,40,50,blue,yellow,blue,20,90,A,595,2839,171,win,20
01YA,exp,1,59,experimental,vertical,left,bottom,right-bottom,left-bottom,right-top,left-top,10,90,70,20,yellow,blue,blue,70,20,B,562,3944,336,win,70
01YA,exp,1,60,experimental,horizontal,bottom,left,left-top,left-bottom,right-top,right-bottom,40,60,50,40,blue,yellow,blue,40,60,A,493,2879,327,win,40
01YA,exp,1,61,experimental,horizontal,bottom,left,left-top,left-bottom,right-top,right-bottom,60,60,90,50,blue,yellow,yellow,90,50,B,391,2689,82,no_win,0
01YA,exp,1,62,experimental,horizontal,bottom,left,left-top,left-bottom,right-top,right-bottom,10,80,80,20,blue,yellow,yellow,80,20,B,606,3173,34,no_win,0
01YA,exp,1,63,experimental,vertical,left,bottom,right-bottom,left-bottom,right-top,left-top,10,90,70,30,yellow,blue,blue,70,30,B,442,4465,264,win,70
01YA,exp,1,64,experimental,vertical,left,bottom,right-bottom,left-bottom,right-top,left-top,30,60,90,10,yellow,blue,yellow,30,60,A,682,4613,322,win,30
01YA,exp,1,65,catch,vertical,left,bottom,right-bottom,left-bottom,right-top,left-top,70,80,30,40,yellow,blue,yellow,70,80,A,833,2871,37,no_win,0
01YA,exp,1,66,catch,vertical,left,bottom,right-bottom,left-bottom,right-top,left-top,80,90,50,60,yellow,blue,yellow,80,90,A,521,2707,226,win,80
01YA,exp,1,67,experimental,vertical,left,top,right-top,left-top,right-bottom,left-bottom,20,60,70,40,blue,yellow,yellow,70,40,B,520,2799,73,no_win,0
01YA,exp,1,68,experimental,horizontal,top,right,right-bottom,right-top,left-bottom,left-top,50,70,80,20,yellow,blue,blue,80,20,B,553,3960,29,no_win,0
01YA,exp,1,69,experimental,vertical,right,top,left-top,right-top,left-bottom,right-bottom,50,90,60,50,blue,yellow,blue,50,90,A,851,5207,163,win,50
01YA,exp,1,70,experimental,vertical,left,bottom,right-bottom,left-bottom,right-top,left-top,50,80,60,30,yellow,blue,yellow,50,80,A,566,2490,15,no_win,0
01YA,exp,1,71,experimental,vertical,left,bottom,right-bottom,left-bottom,right-top,left-top,20,70,70,40,yellow,blue,blue,70,40,B,529,2822,175,no_win,0
01YA,exp,1,72,experimental,horizontal,bottom,left,left-top,left-bottom,right-top,right-bottom,40,90,100,20,blue,yellow,yellow,100,20,B,505,2607,355,win,100
01YA,exp,1,73,catch,horizontal,bottom,right,right-top,right-bottom,left-top,left-bottom,80,90,60,80,yellow,blue,yellow,80,90,A,640,2948,60,win,80
01YA,exp,1,74,experimental,horizontal,bottom,left,left-top,left-bottom,right-top,right-bottom,40,90,80,30,blue,yellow,yellow,80,30,B,382,2535,22,no_win,0
01YA,exp,1,75,experimental,vertical,right,bottom,left-bottom,right-bottom,left-top,right-top,60,70,100,20,yellow,blue,yellow,60,70,A,479,3837,18,no_win,0
01YA,exp,1,76,catch,vertical,left,bottom,right-bottom,left-bottom,right-top,left-top,80,80,60,10,yellow,blue,yellow,80,80,A,1373,2777,235,win,80
01YA,exp,1,77,experimental,horizontal,top,left,left-bottom,left-top,right-bottom,right-top,30,80,70,30,blue,yellow,blue,30,80,A,553,3527,38,no_win,0
01YA,exp,1,78,experimental,vertical,right,top,left-top,right-top,left-bottom,right-bottom,30,60,70,30,blue,yellow,yellow,70,30,B,522,2989,206,no_win,0
01YA,exp,1,79,experimental,horizontal,bottom,left,left-top,left-bottom,right-top,right-bottom,30,70,60,50,blue,yellow,yellow,60,50,B,1968,3319,135,no_win,0
01YA,exp,1,80,experimental,vertical,left,top,right-top,left-top,right-bottom,left-bottom,30,70,90,40,blue,yellow,yellow,90,40,B,428,3566,309,win,90
01YA,exp,1,81,experimental,vertical,left,top,right-top,left-top,right-bottom,left-bottom,60,70,90,50,blue,yellow,yellow,90,50,B,443,3775,310,win,90
01YA,exp,1,82,experimental,vertical,left,bottom,right-bottom,left-bottom,right-top,left-top,60,80,80,30,yellow,blue,yellow,60,80,A,459,2358,128,win,60
01YA,exp,1,83,experimental,vertical,left,top,right-top,left-top,right-bottom,left-bottom,60,80,70,40,blue,yellow,blue,60,80,A,452,2491,1,no_win,0
01YA,exp,1,84,experimental,vertical,left,bottom,right-bottom,left-bottom,right-top,left-top,10,80,70,30,yellow,blue,blue,70,30,B,483,2769,303,win,70
01YA,exp,1,85,experimental,vertical,left,top,right-top,left-top,right-bottom,left-bottom,10,90,80,20,blue,yellow,yellow,80,20,B,489,2926,36,no_win,0
01YA,exp,1,86,experimental,vertical,right,top,left-top,right-top,left-bottom,right-bottom,60,70,80,40,blue,yellow,yellow,80,40,B,474,2529,36,no_win,0
01YA,exp,1,87,experimental,vertical,right,bottom,left-bottom,right-bottom,left-top,right-top,20,70,50,50,yellow,blue,yellow,20,70,A,585,2831,54,no_win,0
01YA,exp,1,88,experimental,vertical,left,top,right-top,left-top,right-bottom,left-bottom,20,60,60,40,blue,yellow,yellow,60,40,B,383,2283,254,win,60
01YA,exp,1,89,experimental,vertical,left,top,right-top,left-top,right-bottom,left-bottom,30,90,60,20,blue,yellow,blue,30,90,A,791,1765,278,win,30
01YA,exp,1,90,experimental,horizontal,top,left,left-bottom,left-top,right-bottom,right-top,50,90,100,20,blue,yellow,yellow,100,20,B,822,2661,80,no_win,0
